time_stamp orientation_x orientation_y orientation_z orientation_w angular_x angular_y angular_z acc_x acc_y acc_z
0.000000000 0.03589042673 0.03589042673 0.03589042673 0.9902692406 0.01666238705 -0.03697614751 0.0006042210418 0.04197812926 0.1365276131 9.950166807 1
0.109994888 0.03622132508 0.03622132508 0.03622132508 0.9902654254 0.002733659688 -0.01275961076 0.001955741501 0.08709526843 0.2391723659 10.31265638 2
0.210042954 0.03473109468 0.03473109468 0.03473109468 0.9903147413 -0.02679077307 0.0227197086 0.0004591075734 0.1908067514 0.1030024286 10.24516488 3
0.310052872 0.03476729343 0.03476729343 0.03476729343 0.9903189729 -0.00423391292 0.03577466411 0.002543051912 -0.09129836249 -0.1877746752 9.334138334 4
0.419983864 0.03466496652 0.03466496652 0.03466496652 0.9903426317 -0.005121682713 0.02214568594 0.003911769701 -0.1012845821 -0.02862321388 9.497079424 5
0.520004034 0.03488278755 0.03488278755 0.03488278755 0.9903478952 0.002985393732 0.007765275617 0.002139764523 -0.1707407472 -0.04602234223 9.604518077 6
0.630076885 0.03530812573 0.03530812573 0.03530812573 0.9903512461 0.005965964961 -0.007184602243 0.00194902478 -0.1952705759 0.04306020056 9.710517036 7
0.730154038 0.03506210269 0.03506210269 0.03506210269 0.9903719315 -0.0001423531429 -0.01039410171 0.001624181758 -0.1912331963 0.1211254866 9.868782122 8
0.830022812 0.03474963686 0.03474963686 0.03474963686 0.9903888741 -0.005402478138 -0.007265492433 0.001553761886 -0.2555076112 0.003838386489 9.930842172 9
0.940022946 0.0341815795 0.0341815795 0.0341815795 0.9904233871 -0.009484164223 -0.003984669497 0.002199860624 -0.16793633 -0.03516535938 9.962720548 10
1.040035010 0.03392554829 0.03392554829 0.03392554829 0.9904399649 -0.006458862631 0.006928431158 0.001864170168 -0.3298448549 -0.006980897974 9.981441678 11
1.139995814 0.03412493359 0.03412493359 0.03412493359 0.9904296874 2.806188777e-05 0.004851472368 0.0005611699246 -0.2942152433 0.05729135253 9.735303837 12
1.250138998 0.03323543332 0.03323543332 0.03323543332 0.9904610184 -0.00802926872 -0.004169612002 0.0002136812157 -0.3704251084 0.003750858379 9.748595135 13
1.350070000 0.03367308802 0.03367308802 0.03367308802 0.9904407943 0.006223574293 -0.005317887034 0.000517397034 -0.2522678461 -0.1662251579 9.876694466 14
1.450048924 0.03359414347 0.03359414347 0.03359414347 0.9904539824 -0.001788753415 0.009240775143 0.002123354795 -0.3548878436 0.05708154385 10.00219192 15
1.560039044 0.0335729255 0.0335729255 0.0335729255 0.9904616874 -0.003480268263 0.01068167117 0.002670428222 -0.3534140255 -0.01120042097 9.725422986 16
1.660054922 0.03372608287 0.03372608287 0.03372608287 0.9904676559 0.003080101796 0.004493496964 0.001750132352 -0.3507632209 -0.08548907119 9.664148617 17
1.760072947 0.03518360517 0.03518360517 0.03518360517 0.9904246771 0.02467601364 0.003725689999 0.001491052183 -0.4072127694 -0.04829005867 9.713058599 18
1.870064974 0.03461094016 0.03461094016 0.03461094016 0.9904528499 -0.006994528412 -0.008598198094 0.002021873018 -0.4882404425 0.2006166515 9.734179739 19
1.970059872 0.03390333464 0.03390333464 0.03390333464 0.9904798918 -0.004406465539 -0.03072841979 0.0008170860862 -0.4567901317 -0.3879363246 9.648846852 20
2.070091009 0.0346126556 0.0346126556 0.0346126556 0.9904785915 0.008559198008 -0.008660159434 0.003308925923 -0.4877574033 0.1636841154 10.05955485 21
2.180065870 0.03293088339 0.03293088339 0.03293088339 0.9905239662 -0.02922729645 0.01477526854 -0.001479254652 -0.1676334 0.1909222049 10.11099678 22
2.280072928 0.03177484996 0.03177484996 0.03177484996 0.9905465489 -0.02702860746 0.01572067252 -0.001759172541 -0.09231759432 -0.1510496763 9.406360992 23
2.380101919 0.03095078914 0.03095078914 0.03095078914 0.9905752971 -0.01841846503 0.006681758655 0.0005815622359 -0.1022093704 -0.04848317565 9.622795461 24
2.490053892 0.02998347116 0.02998347116 0.02998347116 0.9905933597 -0.02193654677 0.007936820075 -0.0003148859935 0.03163168452 0.02136776922 9.647000699 25
2.590071917 0.02908578374 0.02908578374 0.02908578374 0.9906358873 -0.01752118651 -0.01270542632 0.002641044972 0.08979251102 0.01319862441 9.672977025 26
2.690076828 0.02765010169 0.02765010169 0.02765010169 0.9907240259 -0.02544910226 -0.02352060974 0.00625443876 0.2391481093 0.1253469717 9.623229989 27
2.800181866 0.02646145952 0.02646145952 0.02646145952 0.9907877342 -0.01851815371 -0.0102866249 0.005071149629 0.2903024234 0.08458516735 10.19936529 28
2.900113821 0.0249965202 0.0249965202 0.0249965202 0.9908590988 -0.02976710207 0.01621747784 0.006564018991 0.3001921062 0.03508952047 10.00600107 29
3.000102997 0.02422997862 0.02422997862 0.02422997862 0.9908923472 -0.02041229954 0.01644728297 0.005608593623 0.1704429233 -0.03074499986 9.665280892 30
3.110131979 0.02308953585 0.02308953585 0.02308953585 0.9909793576 -0.01919863482 -0.001817579355 0.008318080841 0.2287035277 -0.03208318062 9.502365625 31
3.210320950 0.02313988249 0.02313988249 0.02313988249 0.9910334608 -0.00149045993 -0.006833354358 0.008325659954 0.2734373721 -0.01639292003 9.717878085 32
3.320159912 0.02317694544 0.02317694544 0.02317694544 0.9911085089 0.002186373886 -1.253375472e-05 0.009594757091 0.3511581805 0.07230030671 9.938060601 33
3.420084000 0.02334791308 0.02334791308 0.02334791308 0.9911519537 5.44764159e-05 0.004311299436 0.009270313991 0.3081413924 0.04797321834 9.842948221 34
3.520176888 0.02336841559 0.02336841559 0.02336841559 0.9911907118 0.002383432206 0.001033705356 0.006682121583 0.3383496704 0.1043680984 9.80487598 35
3.630147934 0.0230199814 0.0230199814 0.0230199814 0.9911771264 -0.007021137492 -0.0004157329519 -0.001407806336 0.4329567396 0.05084557724 9.686603379 36
3.730384827 0.02263327146 0.02263327146 0.02263327146 0.9911026294 -0.008204002829 0.01058898465 -0.01064592085 0.4700888035 0.002095043119 9.874112518 37
3.830142975 0.02248332632 0.02248332632 0.02248332632 0.9909837604 -0.0069105281 0.01349476452 -0.0164301551 0.3796030371 -0.2263688704 9.692161102 38
3.940163851 0.02204670628 0.02204670628 0.02204670628 0.99083427 -0.00664839059 0.0004580097174 -0.02071561361 0.4012455532 -0.2073079109 9.565764576 39
4.040139914 0.02226443728 0.02226443728 0.02226443728 0.9906610964 0.006404279708 -0.008847212284 -0.02410847662 0.4442718756 -0.4830409685 9.617243397 40
4.140152931 0.02317964714 0.02317964714 0.02317964714 0.9904840421 0.01345398294 -0.004795616312 -0.02235997034 0.4357220396 -0.2684182937 9.959492058 41
4.250291824 0.02370157253 0.02370157253 0.02370157253 0.990285728 0.01222866804 0.005199148538 -0.02405592906 0.4927684232 -0.2537594609 9.892943743 42
4.350216866 0.02451351008 0.02451351008 0.02451351008 0.9900956547 0.01216394161 0.00976565361 -0.02224574803 0.4131965629 -0.3079096062 9.775704209 43
4.450163841 0.02505202911 0.02505202911 0.02505202911 0.9899213479 0.009038465092 -4.426305806e-05 -0.02216571518 0.4477141594 -0.2211888285 9.66971141 44
4.560168982 0.02495631949 0.02495631949 0.02495631949 0.9897564853 0.001389758934 -0.009306589923 -0.02040704993 0.4308332159 -0.2669437955 9.779189876 45
4.660189867 0.0261673461 0.0261673461 0.0261673461 0.9895909276 0.02222492473 -0.005304604689 -0.01849204989 0.33550234 -0.1771591621 9.913627697 46
4.760207892 0.02629242236 0.02629242236 0.02629242236 0.9894915517 0.008092541724 0.003288248974 -0.01331739146 0.385964344 -0.2247453343 10.02951669 47
4.870229006 0.0284651947 0.0284651947 0.0284651947 0.9893012648 0.03334067446 0.00593307164 -0.01308680864 0.08677568376 -0.3493229177 9.815916378 48
4.970168829 0.02922616937 0.02922616937 0.02922616937 0.9892171314 0.01639076882 -0.01005238591 -0.009038103644 -0.04401069928 0.01735627144 9.594627287 49
5.070231915 0.02928655911 0.02928655911 0.02928655911 0.9891774072 0.009765474735 -0.0437557003 -0.005881580679 -0.003815527692 -0.08111913405 9.711051178 50
5.180199862 0.02943677086 0.02943677086 0.02943677086 0.9891153478 0.006083037509 -0.02718987048 -0.006966998079 0.1277092767 0.08729567423 10.40805044 51
5.280198813 0.02837834243 0.02837834243 0.02837834243 0.9890732025 -0.0202549199 0.01542225149 -0.007984527231 0.08075897798 0.06350928154 10.45302561 52
5.380210877 0.02790115658 0.02790115658 0.02790115658 0.9890179688 -0.01215321731 0.0283238889 -0.008074781732 -0.1232636111 -0.2043958777 9.402349803 53
5.490195990 0.02816926588 0.02816926588 0.02816926588 0.9890052199 0.003053916653 0.006851825003 -0.0009873478525 -0.1396554609 -0.1784066184 9.516153568 54
5.590205908 0.0287279214 0.0287279214 0.0287279214 0.9890070674 0.01219715334 -0.003603824422 0.002172624594 -0.09294754863 -0.08011834083 9.675915087 55
5.700318813 0.02976004171 0.02976004171 0.02976004171 0.9890305566 0.01795779574 -0.0007141951503 0.005997068833 -0.03389506431 0.06526540495 9.888039542 56
5.800335884 0.03021037641 0.03021037641 0.03021037641 0.9891000556 0.01164038026 0.003616315834 0.01036958724 0.05032073894 0.1015574659 9.89221518 57
5.900187016 0.03084177686 0.03084177686 0.03084177686 0.9891948203 0.01038550849 0.005586076552 0.0153847616 -0.1070642893 0.2603533643 9.613270111 58
6.000216007 0.02997863734 0.02997863734 0.02997863734 0.9893464184 -0.008595737016 -0.003303046449 0.01648808063 -0.009738903077 0.2288570426 9.73678471 59
6.110245943 0.02951623469 0.02951623469 0.02951623469 0.9894873836 -0.008449193693 -0.004307964432 0.01695502298 0.03191597075 0.2130607788 9.877498466 60
6.210436821 0.02849333826 0.02849333826 0.02849333826 0.9896161159 -0.01929445913 0.01389788564 0.01555398316 0.141679675 0.2574456036 9.952592043 61
6.310294867 0.02732505222 0.02732505222 0.02732505222 0.9897557137 -0.02699523892 0.01705774127 0.01695652819 0.04894797317 0.2596375286 9.706382145 62
6.420284033 0.02585053741 0.02585053741 0.02585053741 0.9899315135 -0.0258569986 -0.003673432729 0.01746972619 0.01751445937 0.1909963326 9.502594546 63
6.520248890 0.02437099302 0.02437099302 0.02437099302 0.9901053594 -0.02639786845 -0.01856508061 0.0191303506 0.1248587172 0.1892392562 9.85045858 64
6.620247841 0.02341577485 0.02341577485 0.02341577485 0.9902526017 -0.01923277435 -0.01655509868 0.01861312371 0.1470918957 0.1753948252 10.05680826 65
6.730547905 0.02243946385 0.02243946385 0.02243946385 0.9904067862 -0.01639069477 -0.006088432744 0.01794217688 0.1249386042 0.1820578311 10.02664029 66
6.830286026 0.02151283464 0.02151283464 0.02151283464 0.9905571983 -0.01639565556 -0.01397480164 0.01944008733 0.1112883971 0.1225848079 9.900375346 67
6.930271864 0.02136401044 0.02136401044 0.02136401044 0.9906619527 -0.002435855537 -0.01002945449 0.01632925463 0.1975554474 0.07401183909 9.957548766 68
7.040284872 0.02124230923 0.02124230923 0.02124230923 0.990775832 -0.002588449364 0.008778402235 0.01557108524 0.1842134208 0.1751535904 10.00233397 69
7.140283823 0.02111042826 0.02111042826 0.02111042826 0.9908749535 -0.005781892477 0.01996654906 0.01560203336 0.1439964949 0.1405416529 9.687652375 70
7.240525961 0.02118807405 0.02118807405 0.02118807405 0.9909718066 0.001779659253 0.01141328656 0.0149699266 0.1664288095 0.08845540299 9.5602207 71
7.350363016 0.02096968202 0.02096968202 0.02096968202 0.9910910174 -0.005784381742 0.005506670318 0.01544365546 0.1501332193 0.2074416723 9.595080249 72
7.450309038 0.02107206678 0.02107206678 0.02107206678 0.9911746219 0.003143955259 0.001911662767 0.01268165413 0.1835988458 0.08175985515 9.791874639 73
7.560276032 0.02112995714 0.02112995714 0.02112995714 0.991287019 -0.0003413823056 0.01134817243 0.0155775998 0.2736962675 0.1138647213 9.859765691 74
7.660323858 0.02172262886 0.02172262886 0.02172262886 0.9913712397 0.006985346572 0.02157032746 0.01676534737 0.1982171781 0.06391541162 9.745245836 75
7.760344982 0.02279847374 0.02279847374 0.02279847374 0.9914591247 0.02170461502 0.01522248814 0.01800755093 0.2070274325 0.1563289737 9.486834314 76
7.870285034 0.02347671901 0.02347671901 0.02347671901 0.9915774671 0.01278474618 0.006335859843 0.01955413442 0.1854747822 0.2024656962 9.53948219 77
7.970319033 0.02378349583 0.02378349583 0.02378349583 0.9916909628 0.008828106535 -0.005667249449 0.01922832565 0.1945985026 0.2899990374 9.699779587 78
8.070340872 0.02333744879 0.02333744879 0.02333744879 0.9918152979 -0.002574948164 -0.01255515029 0.01826094316 0.2768396165 0.2052962109 9.757715146 79
8.180328846 0.02324878486 0.02324878486 0.02324878486 0.9919354336 -0.005944176568 -0.004760661273 0.01768938977 0.2100689469 0.2497521781 10.04272751 80
8.280315876 0.02277940072 0.02277940072 0.02277940072 0.9920246742 -0.008477040563 0.003459642043 0.01394062737 0.1010686611 0.1697685836 9.934782589 81
8.380316973 0.02229973343 0.02229973343 0.02229973343 0.9920754235 -0.01002058099 -0.004542577163 0.008879143656 -0.06772316642 0.1635945694 9.763345809 82
8.490298987 0.02269417056 0.02269417056 0.02269417056 0.992082202 0.00620951268 -0.001138751009 0.00332336423 -0.03776204343 -0.08452497285 9.857007139 83
8.590298891 0.02357974659 0.02357974659 0.02357974659 0.9920708268 0.01503421727 0.009443464003 0.002240783489 -0.1285729533 -0.004308740671 10.05107973 84
8.690337896 0.0249644309 0.0249644309 0.0249644309 0.9920242186 0.02467312291 0.00443924615 -0.001616325975 -0.2548013227 -0.1808401778 9.657326134 85
8.800361872 0.02614051893 0.02614051893 0.02614051893 0.9919693207 0.02163325451 0.003983359108 -0.003239046077 -0.2095349644 0.02308917109 9.607397005 86
8.900352001 0.02731219492 0.02731219492 0.02731219492 0.9918572765 0.0226500189 0.00324590139 -0.01092923999 -0.2372546829 -0.1517717759 9.84033119 87
9.000344992 0.02807623013 0.02807623013 0.02807623013 0.9917200993 0.01431596843 0.008140039446 -0.01706663406 -0.2679525004 -0.02999580822 9.770877414 88
9.110369921 0.02791607781 0.02791607781 0.02791607781 0.991575162 0.001557757649 -0.008924465937 -0.0202301407 -0.2817057931 -0.264934072 9.704894385 89
9.210351944 0.02870578442 0.02870578442 0.02870578442 0.9913930908 0.01534009647 -0.01653523332 -0.02481321772 -0.3165021879 -0.4098902935 9.889833259 90
9.320400953 0.02884314684 0.02884314684 0.02884314684 0.9912312564 0.003497999838 -0.01866456905 -0.02287896008 -0.3875954275 -0.1164604298 9.841941331 91
9.420336962 0.0282795323 0.0282795323 0.0282795323 0.9910772756 -0.003474789274 -0.02966687633 -0.02520344352 -0.3417644669 -0.3969487478 10.04925934 92
9.520372868 0.02837073606 0.02837073606 0.02837073606 0.9909160726 0.0002075449247 -0.010461849 -0.02461776086 -0.2453821317 -0.3090336975 10.22328841 93
9.630401850 0.02833626228 0.02833626228 0.02833626228 0.9907584771 -0.00430469808 0.02239191106 -0.02078831545 -0.1987429283 -0.1593161531 9.981437507 94
9.730536938 0.02786111673 0.02786111673 0.02786111673 0.9906381551 -0.01331746967 0.02420224892 -0.01780131982 -0.07493287487 -0.2791041847 9.494090805 95
9.830394983 0.02823833856 0.02823833856 0.02823833856 0.9905309285 0.006537590503 0.003897651692 -0.01330548739 0.002271164633 -0.3203823369 9.570030548 96
9.940414906 0.02851895706 0.02851895706 0.02851895706 0.9904680752 0.005260548693 -0.004366136853 -0.008276278633 0.07061743152 -0.1216039752 9.616542526 97
10.040405035 0.02913926432 0.02913926432 0.02913926432 0.9904539937 0.01332431401 -0.008330760653 -0.001191370088 0.1297033841 -0.07092577905 9.850342472 98
10.140393973 0.0289744977 0.0289744977 0.0289744977 0.9905049632 -0.000427785353 0.000419913178 0.005194857908 0.1638305993 0.007216146654 9.868705091 99
10.250567913 0.02892717321 0.02892717321 0.02892717321 0.9905571642 -0.003962566186 0.001751461302 0.00691061036 0.1011765553 0.08051331544 9.804618255 100
10.350442886 0.02784731141 0.02784731141 0.02784731141 0.990637648 -0.01742436419 0.0003716617103 0.007053465052 0.1390705802 0.1405642007 9.728049196 101
10.450389862 0.02742887659 0.02742887659 0.02742887659 0.9906771534 -0.01312710674 -0.001398282107 0.005350394608 0.1049776945 0.09773503975 9.726778998 102
10.560415983 0.02559027373 0.02559027373 0.02559027373 0.9907757415 -0.02693218702 -0.00111428631 0.006185757949 0.03696411099 0.1138278474 9.949796901 103
10.660423994 0.02475981046 0.02475981046 0.02475981046 0.9908378272 -0.0168429591 -0.002330676424 0.006998085082 -0.1047418623 -0.05370809545 9.745691029 104
10.760430813 0.023901638 0.023901638 0.023901638 0.9908985681 -0.01929789291 0.005523999129 0.00589013062 -0.107991791 0.1611381125 9.893928087 105
10.870443821 0.0226283118 0.0226283118 0.0226283118 0.9909630357 -0.02523360029 0.00702284098 0.005608632405 -0.2067477433 0.03375660402 9.855543504 106
10.970402956 0.02148765437 0.02148765437 0.02148765437 0.9910002767 -0.02245675345 0.006026242105 0.002825187254 -0.3657206774 0.02990992785 9.731454563 107
11.070467949 0.02067801584 0.02067801584 0.02067801584 0.9910190329 -0.01448847611 -0.002912088164 0.001253345744 -0.2007846202 0.04215206782 9.712086817 108
11.180451870 0.01890576135 0.01890576135 0.01890576135 0.9910512325 -0.02880262196 -0.006772036177 9.721495022e-05 -0.2482306986 0.03297257791 9.838372775 109
11.280563831 0.01793137771 0.01793137771 0.01793137771 0.99107605 -0.01942951428 -0.007038905295 0.001649273858 -0.2743261879 -0.1152286043 9.836772935 110
11.380568028 0.01761889818 0.01761889818 0.01761889818 0.9910818513 -0.00554916557 -0.00963201414 0.0001737727365 -0.2841873141 0.07367890614 10.02368922 111
11.490491867 0.01705553012 0.01705553012 0.01705553012 0.9910899205 -0.01110003632 0.007931012999 -0.0007919103689 -0.2467105258 -0.0592019417 9.749847826 112
11.590427876 0.01672608922 0.01672608922 0.01672608922 0.9910998558 -0.006077216589 0.01491184436 0.0008334776212 -0.3504075462 -0.05610133388 9.996449099 113
11.690519810 0.01635991166 0.01635991166 0.01635991166 0.9910825517 -0.009585619335 0.01008556945 -0.002490480444 -0.3091932334 0.06233857444 9.577241818 114
11.800498963 0.01521653795 0.01521653795 0.01521653795 0.9910705437 -0.01609792815 -0.009475547754 -0.005598853729 -0.3214461165 0.0346607351 9.677996762 115
11.900486946 0.01436694031 0.01436694031 0.01436694031 0.9910553047 -0.0155407852 -0.005976408882 -0.003968325009 -0.2937176292 -0.1098861947 9.900292458 116
12.010479927 0.01417769058 0.01417769058 0.01417769058 0.9910186488 -0.005387553697 0.00636706171 -0.005826931414 -0.3391209876 -0.1279594161 10.00163802 117
12.110484839 0.01412515362 0.01412515362 0.01412515362 0.9909809494 -0.003836898459 0.0109627359 -0.005551630987 -0.3610325197 -0.08112840242 9.763577261 118
12.210696936 0.01483354225 0.01483354225 0.01483354225 0.9909341532 0.01052552996 0.02025970544 -0.004928427702 -0.3869012494 -0.2420911546 9.741407569 119
12.320567846 0.01641817116 0.01641817116 0.01641817116 0.9908881253 0.0255982449 0.02104414774 -0.001986538055 -0.4274842231 -0.0884218068 9.684368694 120
12.420482874 0.01687417005 0.01687417005 0.01687417005 0.9908661218 0.01213042766 -0.00312367396 -0.002911880154 -0.4980137933 0.02765015579 9.41952717 121
12.520498991 0.0175079585 0.0175079585 0.0175079585 0.9908582428 0.01831164049 -0.01398949672 -0.002084770722 -0.4392567269 -0.06381581691 9.782108121 122
12.630584002 0.01832363996 0.01832363996 0.01832363996 0.9908288851 0.01568400121 -0.003648284135 -0.002214923895 -0.3197287147 -0.09562419534 10.09398367 123
12.730684042 0.01935208594 0.01935208594 0.01935208594 0.9907659447 0.01809320223 0.02702610829 -0.005318308894 -0.3920551622 0.09549208828 9.800047715 124
12.830538035 0.01890130081 0.01890130081 0.01890130081 0.9907525319 -0.0138776869 0.02730317122 -0.002576599718 -0.5370986774 0.0487659869 8.748086841 125
12.940522909 0.02024141596 0.02024141596 0.02024141596 0.9907467592 0.01705331133 -0.00196025666 6.599852167e-05 -0.5494700774 0.06822535328 9.843355884 126
13.040511847 0.02052422739 0.02052422739 0.02052422739 0.9907666163 0.007845633065 -0.006531669664 0.002611361004 -0.3636612033 0.09294412729 9.82519141 127
13.140516997 0.02072837809 0.02072837809 0.02072837809 0.9907457451 0.003617994191 0.004616476313 -0.001421375144 -0.3922099676 -0.1157381281 9.866145461 128
13.250649929 0.0212456243 0.0212456243 0.0212456243 0.9907110552 0.005573325253 0.01184574756 -0.002260196894 -0.3852475766 -0.009796162214 9.872168241 129
13.350565910 0.0212210715 0.0212210715 0.0212210715 0.9906862525 -0.0009981237017 0.01291798817 -0.003112647118 -0.4612989726 -0.05179027551 9.602382437 130
13.450548887 0.02176300995 0.02176300995 0.02176300995 0.9906496476 0.01069722088 0.002168240511 -0.003450332971 -0.4695461385 -0.1440662887 9.694729725 131
13.560556889 0.02299859172 0.02299859172 0.02299859172 0.9905953051 0.0230903991 -0.01024031756 -0.004245624884 -0.489470103 -0.08217278942 9.848376682 132
13.660542965 0.02424472796 0.02424472796 0.02424472796 0.9905373017 0.02677040093 -0.02618466807 -0.005523268527 -0.4869426292 -0.1104443723 9.794519222 133
13.760586023 0.02483527165 0.02483527165 0.02483527165 0.9904970725 0.01855452941 -0.03484305042 -0.005054612489 -0.5077266593 -0.06778103311 9.977802784 134
13.870575905 0.02633462916 0.02633462916 0.02633462916 0.9904242739 0.02661272647 -0.03070323582 -0.005880491373 -0.5473970581 -0.05455927355 10.16753614 135
13.970546961 0.02627178752 0.02627178752 0.02627178752 0.9904076586 0.006766382269 -0.02166776111 -0.003297273827 -0.5341532633 0.2457620592 10.11247639 136
14.080540896 0.02615981309 0.02615981309 0.02615981309 0.9903403879 0.001507675462 -0.003721680425 -0.008013475164 -0.4944376201 -0.01625844535 9.966692462 137
14.180598021 0.0254210691 0.0254210691 0.0254210691 0.9903165346 -0.0149055776 0.01850290982 -0.006140228356 -0.4764207503 0.06593219 9.941356516 138
14.280589819 0.02491595952 0.02491595952 0.02491595952 0.9902358472 -0.01627275473 0.03198923544 -0.01154738937 -0.6343064855 0.072635238 9.708769727 139
14.390589953 0.02313557606 0.02313557606 0.02313557606 0.9901762309 -0.03081983094 0.008170787019 -0.01326954145 -0.6943490163 -0.09921679485 9.491903457 140
14.490617991 0.02223893725 0.02223893725 0.02223893725 0.9900631724 -0.01938986705 -0.008284532849 -0.01843659646 -0.7341998873 -0.2030704732 9.545692798 141
14.590569973 0.02131699004 0.02131699004 0.02131699004 0.9899615166 -0.0145501753 -0.01937120458 -0.01797680249 -0.8097810806 -0.2146901077 9.997796954 142
14.700690031 0.02081030958 0.02081030958 0.02081030958 0.9898159196 -0.007951396306 -0.01344230229 -0.01984190158 -1.123143368 -0.2279879543 10.04785623 143
14.800611973 0.0203798357 0.0203798357 0.0203798357 0.9896945258 -0.008669798681 -0.007608649668 -0.01877352046 -1.132875512 -0.2086651072 9.982901021 144
14.900604010 0.02029309921 0.02029309921 0.02029309921 0.9895664669 -0.003385247574 0.009467458451 -0.01796585565 -1.203193907 -0.2326604868 10.02611563 145
15.010610819 0.02095609716 0.02095609716 0.02095609716 0.9894101997 0.007188410888 0.02346339969 -0.01655160665 -1.19517392 -0.335499905 9.795776936 146
15.110560894 0.02176394901 0.02176394901 0.02176394901 0.9892560262 0.007853497584 0.02778232895 -0.01813795579 -1.317333582 -0.03149046211 9.66378912 147
15.210701943 0.02218128961 0.02218128961 0.02218128961 0.9890955133 0.008163286125 0.0238718102 -0.01980336678 -1.323404895 -0.1708922642 9.460353161 148
15.320619822 0.0224870656 0.0224870656 0.0224870656 0.9889349948 0.002273326364 0.004075654055 -0.01760203194 -1.276256461 -0.1859801935 9.443134683 149
15.420601845 0.02246842877 0.02246842877 0.02246842877 0.9887951921 0.0009350695635 -0.006359195957 -0.01981125756 -1.279238968 -0.1077502942 9.727096414 150
15.530611992 0.02242295187 0.02242295187 0.02242295187 0.988667954 0.002816044807 -0.01385164214 -0.01631943712 -1.389902915 -0.1899195826 9.896356054 151
15.630662918 0.02237749266 0.02237749266 0.02237749266 0.9885622842 -0.0002898912933 -0.009874382021 -0.01505016299 -1.487573934 -0.05721797199 9.906211105 152
15.730860949 0.02181762651 0.02181762651 0.02181762651 0.9884653065 -0.006863222952 -0.003120420986 -0.01429479071 -1.518696306 -0.09397688738 9.872258673 153
15.840636015 0.0215841938 0.0215841938 0.0215841938 0.9883511991 -0.006978712166 0.004783728041 -0.01300906679 -1.566126376 -0.1707986453 9.989309625 154
15.940639019 0.02229674867 0.02229674867 0.02229674867 0.9882488565 0.01210700674 0.009563580319 -0.0113805114 -1.590277677 -0.2435650378 9.832889937 155
16.040644884 0.02327825593 0.02327825593 0.02327825593 0.9881689741 0.01356050152 0.01049366516 -0.007365626761 -1.62982994 -0.05944262125 9.719798447 156
16.150653839 0.02324779537 0.02324779537 0.02324779537 0.9880846988 -0.00435161577 -0.001548817824 -0.009817988403 -1.811306476 0.1202736388 9.56747568 157
16.250787020 0.02300239116 0.02300239116 0.02300239116 0.9880163343 -0.0008302884779 -0.01335381217 -0.01094124214 -1.803134089 -0.03516934705 9.645904212 158
16.350625992 0.02304161344 0.02304161344 0.02304161344 0.9879628894 0.001641229191 -0.01879466155 -0.006965904598 -1.840983531 -0.1587079622 9.863271944 159
16.460608006 0.0239034619 0.0239034619 0.0239034619 0.9878586516 0.01818927696 -0.009523709906 -0.01045662773 -1.881582305 0.04955309723 9.95622157 160
16.560688019 0.023840523 0.023840523 0.023840523 0.9877772254 -0.00128425178 0.004965411821 -0.01081587486 -1.919464364 0.0659326688 9.945788265 161
16.660661936 0.02347370154 0.02347370154 0.02347370154 0.9876798479 -0.006543904214 0.01172538812 -0.0126662934 -1.92977241 -0.06363145992 9.842415978 162
16.770717859 0.02343556812 0.02343556812 0.02343556812 0.9875541023 -0.005862098217 0.01159340584 -0.01394724283 -1.757350834 -0.1214070893 9.737074924 163
16.870692969 0.02359905592 0.02359905592 0.02359905592 0.9874200849 0.001749031033 0.00327229521 -0.01682488205 -1.603098241 -0.1135167793 9.672323113 164
16.970731020 0.02322587631 0.02322587631 0.02322587631 0.9872623581 -0.007987592914 -0.009121873445 -0.02038704776 -1.565240976 0.03130663293 9.594973853 165
17.080691815 0.02295080539 0.02295080539 0.02295080539 0.9870200639 0.0003940104911 -0.01768468428 -0.02829508529 -1.506750876 -0.2030969256 9.830242334 166
17.180655956 0.02359235213 0.02359235213 0.02359235213 0.9867867812 0.01377371673 -0.01297775762 -0.02775011275 -1.479486925 -0.2847117298 9.776425518 167
17.290760994 0.02411084961 0.02411084961 0.02411084961 0.9865074113 0.009381932311 0.00178612024 -0.0297538181 -1.529816287 -0.08305119877 9.888062007 168
17.390663862 0.02427967034 0.02427967034 0.02427967034 0.9862553285 0.0003752666584 0.006427418458 -0.02957895163 -1.631162305 -0.06818074357 9.858843893 169
17.490689993 0.0235745379 0.0235745379 0.0235745379 0.9860218776 -0.01166040242 0.003151759793 -0.03107826755 -1.562830383 -0.03704907216 9.961437406 170
17.600713015 0.023358532 0.023358532 0.023358532 0.9857611384 -0.00516644042 0.008961749601 -0.02829050456 -1.354146528 -0.2518835586 9.879563606 171
17.700933933 0.02361336851 0.02361336851 0.02361336851 0.9855311937 0.00131285744 0.01240577264 -0.02620846838 -1.324461286 -0.2082929417 9.501023072 172
17.800770998 0.02366280717 0.02366280717 0.02366280717 0.9853021552 0.003149328245 0.003912626969 -0.02692838183 -1.281808071 -0.1808868497 9.617694367 173
17.910782814 0.02466977244 0.02466977244 0.02466977244 0.9850187964 0.01252983886 0.004362005882 -0.02648247858 -1.200370401 -0.1160981555 9.849482881 174
18.010722876 0.02506293928 0.02506293928 0.02506293928 0.9848487106 0.006492870861 0.01302297898 -0.02077928844 -1.425652204 0.06189746341 9.93159637 175
18.110761881 0.02398881679 0.02398881679 0.02398881679 0.9847598032 -0.01899331017 -0.002918887318 -0.01457533672 -1.43924807 0.1392379108 9.800170845 176
18.220964909 0.02270273934 0.02270273934 0.02270273934 0.9846921873 -0.01868994851 -0.01128869758 -0.01034938466 -1.485402309 -0.1288376272 9.733102106 177
18.310825825 0.02218674011 0.02218674011 0.02218674011 0.9847214604 -0.01260506337 -0.005635100097 -0.0007167885476 -1.51703171 -0.07231120366 9.708219667 178
18.420805931 0.02158236101 0.02158236101 0.02158236101 0.9850017634 -0.01465782126 -0.0009961847137 0.009073453857 -1.585467368 -0.03923813845 9.77562449 179
18.530784845 0.02097705013 0.02097705013 0.02097705013 0.9852792838 -0.01671057914 0.00364273067 0.01886369626 -1.653903027 -0.006165073243 9.843029313 180
18.640764952 0.02037081212 0.02037081212 0.02037081212 0.9855540197 -0.01876333702 0.008281646054 0.02865393867 -1.722338685 0.02690799196 9.910434135 181
18.750744820 0.01976365163 0.01976365163 0.01976365163 0.9858259689 -0.02081609491 0.01292056144 0.03844418107 -1.790774343 0.05998105717 9.977838958 182
18.860723972 0.01915557335 0.01915557335 0.01915557335 0.9860951292 -0.02286885279 0.01755947682 0.04823442347 -1.859210001 0.09305412238 10.04524378 183
18.940750837 0.01826192104 0.01826192104 0.01826192104 0.9864823634 -0.02544136031 0.01537150405 0.05579823495 -1.848046209 0.1131481217 9.613576557 184
19.050767899 0.01765958829 0.01765958829 0.01765958829 0.9870805933 -0.01155727636 0.003338096532 0.06656677355 -1.785994565 0.1100415666 9.527683634 185
19.150779963 0.01696168312 0.01696168312 0.01696168312 0.9877075617 -0.0129944466 -0.0005270180966 0.07739092873 -1.7346285 0.1893665445 9.701672226 186
19.250949860 0.01653419582 0.01653419582 0.01653419582 0.9883712124 -0.008764615238 -0.002296157244 0.0846758185 -1.695019984 0.1576940338 9.704755873 187
19.360803843 0.01570015219 0.01570015219 0.01570015219 0.98914479 -0.01407556487 -0.004210755463 0.09238838653 -1.609908443 0.2507853966 9.765077327 188
19.460727930 0.0150259146 0.0150259146 0.0150259146 0.9898384124 -0.01310083952 -0.002026757289 0.09474421721 -1.536405829 0.1704826639 9.826687699 189
19.560781002 0.01439960258 0.01439960258 0.01439960258 0.9904906569 -0.0118445375 -0.001738956112 0.09315839413 -1.550380421 0.1597219847 9.873101103 190
19.670760870 0.0137493261 0.0137493261 0.0137493261 0.9911682713 -0.01133820577 0.0006217197405 0.09068982683 -1.561321053 0.1781472409 9.897952007 191
19.770833969 0.01298732597 0.01298732597 0.01298732597 0.9917646465 -0.01479095364 0.001817092901 0.09159529909 -1.23252175 0.1194609335 9.781229757 192
19.870810032 0.01234571006 0.01234571006 0.01234571006 0.9924210989 -0.01316154611 -0.01178916149 0.1020052283 -0.3725789973 0.10185181 9.618165496 193
19.980788946 0.01137692216 0.01137692216 0.01137692216 0.9931598151 -0.0130472087 -0.01925729553 0.1092546 -0.1096617598 0.1710066138 9.848449988 194
20.080804825 0.01104783905 0.01104783905 0.01104783905 0.9938178832 -0.005987680629 -0.01137048973 0.1154385523 -0.07044490659 0.02696243134 9.92552931 195
20.180826903 0.01086342699 0.01086342699 0.01086342699 0.994510038 -0.003877700361 0.00220492312 0.1270128954 -0.05622491155 0.1285476902 9.904585483 196
20.290920019 0.01066411024 0.01066411024 0.01066411024 0.9952183146 -0.004842942334 0.007810683341 0.1273528086 -0.09970994233 0.3080466939 9.821396493 197
20.390830040 0.01015667245 0.01015667245 0.01015667245 0.9958233031 -0.008739783271 0.005446311884 0.129167628 -0.1364701006 0.1635704437 9.813153376 198
20.490837813 0.009750849423 0.009750849423 0.009750849423 0.9964228935 -0.008005421525 0.004131986565 0.1364384086 -0.09753971246 0.108870808 9.765893038 199
20.600853920 0.009452455198 0.009452455198 0.009452455198 0.9970405511 -0.004786106059 0.003294349505 0.1394589314 0.05147973754 0.1911643717 9.723584077 200
20.701015949 0.009462229917 0.009462229917 0.009462229917 0.9975691691 -7.361524188e-05 -0.004207081398 0.1446023742 0.3604100589 0.1407275124 9.67931544 201
20.800897837 0.009365539045 0.009365539045 0.009365539045 0.9980963527 4.454220515e-05 -0.01228478263 0.1592679641 0.7256982173 0.1624875014 9.734149005 202
20.910840988 0.009512388215 0.009512388215 0.009512388215 0.9986524 0.004141195401 -0.02201160334 0.1779041997 1.191569048 0.2554501639 9.751189755 203
21.010859013 0.009593328195 0.009593328195 0.009593328195 0.9991100956 0.003616294158 -0.02389281285 0.1966903835 1.441490817 0.2766671121 9.897782883 204
21.110865832 0.009734846626 0.009734846626 0.009734846626 0.9995029475 0.00398949073 -0.01474871884 0.2196274148 1.595948056 0.3348293792 9.944645525 205
21.220978975 0.009880296509 0.009880296509 0.009880296509 0.9998146182 0.003458420669 -0.004477570392 0.2443273104 1.666131118 0.4427120498 9.812707065 206
21.320920944 0.009881067329 0.009881067329 0.009881067329 0.9999457168 -0.0001552474273 -0.001542541683 0.2683812872 1.561401575 0.5880344729 9.758030399 207
21.420882940 0.009545909684 0.009545909684 0.009545909684 0.9998804385 -0.004199006023 -0.001670557731 0.2953327692 1.506381235 0.6072293268 9.885298537 208
21.530903816 0.009498072461 0.009498072461 0.009498072461 0.9995085553 -0.0005722799757 0.002346904323 0.3214224345 1.444024697 0.680681029 9.82676501 209
21.630941868 0.009849990376 0.009849990376 0.009849990376 0.998849393 0.008625985387 0.003075573015 0.3398318988 1.459647147 0.8008443154 9.768993322 210
21.731003046 0.01057980714 0.01057980714 0.01057980714 0.9978358563 0.0150764382 0.003850350126 0.3577568604 1.46934967 0.8907513684 9.753096318 211
21.840883017 0.011331774 0.011331774 0.011331774 0.9962506937 0.01483622726 -0.0006172389106 0.3795405475 1.413426873 1.071600688 9.78533948 212
21.940925837 0.01156102324 0.01156102324 0.01156102324 0.9943345712 0.007351667351 -0.003917830268 0.3978959388 1.356096755 1.231210505 9.833177579 213
22.040905953 0.01150453213 0.01150453213 0.01150453213 0.9919307152 0.001089488975 0.002523866259 0.4134645852 1.184661791 1.259458706 9.86706585 214
22.150928021 0.01124257802 0.01124257802 0.01124257802 0.9886808568 -0.0006234758274 0.004709758023 0.4277006296 1.238145497 1.347677926 9.782076649 215
22.251060009 0.01095249665 0.01095249665 0.01095249665 0.9851649254 -0.00368537277 0.002357179038 0.4375178842 1.262356948 1.47291829 9.778757707 216
22.350960970 0.01022451221 0.01022451221 0.01022451221 0.9811402649 -0.01087416975 0.003865486528 0.4422397964 1.22538119 1.661979368 9.77977371 217
22.460935831 0.009192590399 0.009192590399 0.009192590399 0.9761789137 -0.01492650059 0.0001256319774 0.4421181621 1.267546995 1.537205963 9.638443627 218
22.560925961 0.008634622564 0.008634622564 0.008634622564 0.9712281428 -0.01117733421 -0.006785436819 0.436330029 1.441058322 1.498985295 9.876212239 219
22.660943031 0.008741217498 0.008741217498 0.008741217498 0.9659694713 0.00317926648 -0.0007094543602 0.4240511682 1.555778288 1.5617469 9.946601701 220
22.770956993 0.009372588936 0.009372588936 0.009372588936 0.9599134181 0.01702452976 0.01263366097 0.4094624134 1.688590029 1.596005833 9.905295268 221
22.870947838 0.01008041611 0.01008041611 0.01008041611 0.9541411115 0.02448991077 0.02188404481 0.3992614125 1.669142885 1.692913365 9.761015044 222
22.970947981 0.0104754401 0.0104754401 0.0104754401 0.9481313466 0.01660169401 0.02000984139 0.3906898035 1.617096575 1.815452003 9.639358029 223
23.080940962 0.01057957604 0.01057957604 0.01057957604 0.9411006799 0.01354764376 0.01434859771 0.3914167105 1.554344916 1.62434804 9.776975001 224
23.180953026 0.01200996892 0.01200996892 0.01200996892 0.9340771281 0.03644235377 0.0139053754 0.4015779509 1.672453241 1.680680282 9.909859012 225
23.281011820 0.01230503868 0.01230503868 0.01230503868 0.9264719438 0.02309602359 0.0285210113 0.4144565198 1.618288701 1.941869041 9.755920505 226
23.390959978 0.01332377248 0.01332377248 0.01332377248 0.9176358778 0.02695981843 0.02142738787 0.4136119951 1.589029517 2.185705647 9.383450487 227
23.490960837 0.01381431292 0.01381431292 0.01381431292 0.9093948395 0.02489899683 -0.0008415576319 0.4048264675 1.59839636 2.433822852 9.418057117 228
23.591004849 0.01300135471 0.01300135471 0.01300135471 0.90115057 -0.01730082645 -0.02224224722 0.3920189851 1.555465541 2.178769259 9.655303107 229
23.701135874 0.01321908979 0.01321908979 0.01321908979 0.8923416969 0.0002991409474 -0.02416739183 0.3624275937 1.743685104 1.88953291 9.887505179 230
23.801020861 0.01466477289 0.01466477289 0.01466477289 0.8849076231 0.0210762878 -0.03556731633 0.3253523151 1.688321521 1.621566733 9.450651341 231
23.911017895 0.0164463166 0.0164463166 0.0164463166 0.8772128869 0.01230230944 -0.04536658569 0.2950173604 1.527850876 1.551645168 9.788717194 232
24.011169911 0.01692870727 0.01692870727 0.01692870727 0.8704922644 -0.00827632152 -0.0299418552 0.2751740416 1.513087773 1.850294369 10.83851909 233
24.111002922 0.01565674834 0.01565674834 0.01565674834 0.8640606484 -0.02242541521 -0.01651394411 0.2601017911 1.547363473 1.654777041 9.778793042 234
24.221128941 0.01593183919 0.01593183919 0.01593183919 0.8567156019 -0.0034823528 -0.01380699088 0.2607949366 1.273302188 1.25213253 9.940003811 235
24.321038962 0.01560924655 0.01560924655 0.01560924655 0.8498069212 -0.001026946001 0.005114816321 0.2616637183 1.346871244 1.717498744 10.20315381 236
24.421002865 0.01521771145 0.01521771145 0.01521771145 0.8430809755 -0.00346527959 0.01116091585 0.2520480058 1.34125039 1.835558016 9.711037047 237
24.531023979 0.01332972277 0.01332972277 0.01332972277 0.8363436701 -0.02574510501 0.01135996835 0.2273048816 1.334938736 1.811638184 9.70619767 238
24.631055832 0.01128845256 0.01128845256 0.01128845256 0.8308788265 -0.03566112092 0.01528426233 0.2025041174 1.304545041 1.447169629 9.811517448 239
24.731125832 0.009802595723 0.009802595723 0.009802595723 0.8260162594 -0.02846329515 0.007365877223 0.1762217536 1.27484426 1.248767014 9.639261498 240
24.841007948 0.009168874239 0.009168874239 0.009168874239 0.8214258239 -0.01691367217 -0.00259314071 0.1477143318 1.307971134 1.025224782 9.646054613 241
24.941033840 0.008970993677 0.008970993677 0.008970993677 0.8179865694 -0.007507554699 -0.005274502049 0.1221834302 1.291606031 0.9095069519 9.719255971 242
25.051020861 0.008856396941 0.008856396941 0.008856396941 0.8151391479 -0.006338575027 -0.007259740114 0.09107298941 1.242085957 0.7786848158 9.939236125 243
25.151049853 0.008328522866 0.008328522866 0.008328522866 0.8130613473 -0.004553040095 0.006183499327 0.07273561346 1.083294391 0.4964410687 10.01272242 244
25.251264811 0.008165992648 0.008165992648 0.008165992648 0.8114203998 0.004292075325 0.0105769083 0.05599075826 0.9054097424 0.4251987034 9.795861295 245
25.361081839 0.007980644296 0.007980644296 0.007980644296 0.8099799876 0.002310005196 0.009318262029 0.04388884571 0.8255794772 0.3345746877 9.732430884 246
25.461041927 0.007455631442 0.007455631442 0.007455631442 0.8087792427 0.005192134887 0.02314384062 0.04046097217 0.7504173948 0.28066245 9.716906001 247
25.561059952 0.007351688416 0.007351688416 0.007351688416 0.8075617126 0.01391811182 0.02370078149 0.03982660826 0.6820851604 0.2279355321 9.739002488 248
25.671037913 0.007382989901 0.007382989901 0.007382989901 0.8063462004 0.00693680145 0.01168212018 0.03608325879 0.7020533976 0.4136060928 9.693702183 249
25.771059036 0.008022062453 0.008022062453 0.008022062453 0.8054993142 0.002073111965 -0.01548470252 0.02696193557 0.7023273317 0.387445912 9.373893406 250
25.871034861 0.008925295364 0.008925295364 0.008925295364 0.8049266667 -0.00621524933 -0.03787121423 0.01762643685 0.8091714705 0.1776336583 9.672636366 251
25.981060982 0.01018621179 0.01018621179 0.01018621179 0.8046816211 -0.009589136983 -0.04554702092 0.005697174112 0.7886493231 0.04318653835 10.14791749 252
26.081037998 0.01109104101 0.01109104101 0.01109104101 0.8046776043 -0.008414421775 -0.03513596325 -0.002232427513 0.7080682613 0.02533626796 10.27236615 253
26.191114903 0.01039545851 0.01039545851 0.01039545851 0.8048058738 -0.01804943434 -0.0109307799 -0.008044726943 0.6630119872 -0.07056560595 10.05154468 254
26.291168928 0.00966369896 0.00966369896 0.00966369896 0.8052227797 -0.02111180331 0.009035314857 -0.01457619899 0.6687173373 -0.1782598515 10.30994671 255
26.391113043 0.008237270618 0.008237270618 0.008237270618 0.8057327316 -0.007860533509 0.03902214826 -0.01961469841 0.5926717424 0.1351401909 9.888088152 256
26.501255989 0.006182111769 0.006182111769 0.006182111769 0.8063634408 -0.01553215814 0.03725152836 -0.02058791433 0.5713163729 -0.1806975614 9.631063007 257
26.601094008 0.005068676943 0.005068676943 0.005068676943 0.8069332635 -0.01056722031 0.02031668896 -0.02083307216 0.4890615835 -0.1834324944 9.331769784 258
26.701265812 0.005289257966 0.005289257966 0.005289257966 0.8074485811 0.00189664336 -0.003420487392 -0.01936745233 0.6035111444 -0.3460560846 9.390166859 259
26.811323881 0.006222459565 0.006222459565 0.006222459565 0.8079617293 0.01228363667 -0.01030989935 -0.01736881743 0.6157660399 -0.2202327955 9.894862641 260
26.911145926 0.007219308373 0.007219308373 0.007219308373 0.8084774713 0.01704354123 -0.005036603623 -0.01917495806 0.6533394315 -0.1094226272 9.952697551 261
27.011117935 0.007000430596 0.007000430596 0.007000430596 0.8089467467 0.0009180152496 0.005467932085 -0.01693376877 0.6257203867 -0.03626702287 9.854072257 262
27.121094942 0.007058335744 0.007058335744 0.007058335744 0.8095846559 0.007084214138 0.007512804472 -0.01901922615 0.5695277815 -0.179113672 9.945726653 263
27.221159935 0.007160562132 0.007160562132 0.007160562132 0.8100894301 0.003404032991 0.0009210623905 -0.01664637259 0.590769027 -0.1850609034 9.662152318 264
27.331110954 0.007984951797 0.007984951797 0.007984951797 0.8107757381 0.007298975457 -0.01213691523 -0.02033252392 0.5707334976 -0.09910882412 9.647591706 265
27.431125879 0.00820003454 0.00820003454 0.00820003454 0.8113014195 -0.003710807509 -0.01242433057 -0.0178485784 0.7460513219 -0.1095394843 9.937155513 266
27.531143904 0.008136355149 0.008136355149 0.008136355149 0.8118745914 -0.001687127042 -0.001568174675 -0.01909909611 0.8215312033 -0.1957155214 10.03116058 267
27.631234884 0.007494564249 0.007494564249 0.007494564249 0.8123601446 -0.005238292654 0.01332250762 -0.01706612362 0.7463472977 -0.1124844486 9.968064142 268
27.741250038 0.006546028337 0.006546028337 0.006546028337 0.8129449419 -0.008186346678 0.01411386825 -0.0183676584 0.5961681341 -0.07223227024 9.698839463 269
27.841135025 0.005855571446 0.005855571446 0.005855571446 0.8134746264 -0.01281446205 0.00301283077 -0.0176605671 0.4765376548 -0.1523175076 9.506503623 270
27.951148987 0.005866670803 0.005866670803 0.005866670803 0.8139677066 -0.007124028118 -0.007472093231 -0.01576721434 0.5541149113 -0.1748415844 9.789121054 271
28.051162958 0.005347248481 0.005347248481 0.005347248481 0.8143902551 -0.01268984631 -0.002345324919 -0.01408655352 0.5675696978 -0.08906194098 9.873801091 272
28.151168823 0.004444761991 0.004444761991 0.004444761991 0.814979096 -0.01261002089 0.01215208215 -0.01895634002 0.5693942919 -0.1343978648 9.968859015 273
28.261273861 0.00227831815 0.00227831815 0.00227831815 0.8156567418 -0.03761992674 0.02079912135 -0.01999048477 0.3513458911 -0.06460948766 9.774920758 274
28.361162901 0.001110765991 0.001110765991 0.001110765991 0.8163885072 -0.01545827476 0.01676991354 -0.02513951578 0.3187691116 -0.3146579693 9.649157796 275
28.461189032 0.001581091285 0.001581091285 0.001581091285 0.817198822 0.009620418885 0.008530120628 -0.02745331351 0.3268773078 -0.4954887062 9.502792803 276
28.571182013 0.00169945387 0.00169945387 0.00169945387 0.818219473 -0.0003800273651 0.011077934 -0.0313202773 0.3708442243 -0.2298686199 9.775569265 277
28.671188831 0.002343060158 0.002343060158 0.002343060158 0.8190705198 0.01546322316 0.01905317991 -0.02901093153 0.461712898 0.09327588926 9.509644096 278
28.771222830 0.00373701706 0.00373701706 0.00373701706 0.819827749 0.01871217069 -0.01169540207 -0.0272687996 0.3339132372 -0.291930208 9.90270517 279
28.881183863 0.004037851306 0.004037851306 0.004037851306 0.8207400745 -0.009641184856 -0.02717789842 -0.02982564633 0.2214544159 -0.08093295145 9.761986265 280
28.981202841 0.00398163409 0.00398163409 0.00398163409 0.8216229399 -0.03566692012 -0.049985155 -0.03146321157 0.1444879434 -0.005529478601 9.920680448 281
29.081210852 0.003417659077 0.003417659077 0.003417659077 0.8224930967 -0.03258561142 -0.03487175714 -0.03115436125 0.1078090066 -0.401640665 10.55946178 282
29.191229820 0.003687390559 0.003687390559 0.003687390559 0.8235683415 0.01038349306 0.01782609684 -0.03273532596 0.1789444309 -0.5660509102 10.3907568 283
29.291251898 0.001592779489 0.001592779489 0.001592779489 0.8244017042 0.00296048533 0.07123512004 -0.03092860279 0.1347524236 -0.2839326172 9.885596955 284
29.401237965 0.001526592191 0.001526592191 0.001526592191 0.825212557 0.04684535555 0.07204579507 -0.02690174925 -0.01248753129 -0.6997094355 9.162652798 285
29.501271010 0.002138514267 0.002138514267 0.002138514267 0.8256489651 0.03358811451 0.02630330184 -0.01909547175 -0.1327097436 -0.08484736272 8.913660694 286
29.601274967 0.004197282839 0.004197282839 0.004197282839 0.8264151729 0.03659974037 -0.01803964303 -0.0281226089 0.02341396784 -0.2032838266 9.158065987 287
29.711318016 0.005450364878 0.005450364878 0.005450364878 0.8273104419 -0.0007234836243 -0.03466000193 -0.027980352 0.05180800671 0.2157777406 10.13499637 288
29.811264038 0.004397631935 0.004397631935 0.004397631935 0.8281459966 -0.02877166244 -0.0228820687 -0.02887206855 0.1990567173 -0.2306055559 10.02608906 289
29.911275864 0.005825304846 0.005825304846 0.005825304846 0.828798349 0.007551205929 -0.03682758252 -0.0245416458 0.08563596525 -0.6878984729 10.09190976 290
30.021373987 0.006959506375 0.006959506375 0.006959506375 0.8294356659 -0.003283322386 -0.04528312169 -0.02274407557 0.1175537892 -0.06315556969 9.838390163 291
30.121217013 0.008440490709 0.008440490709 0.008440490709 0.8301217161 0.000849993628 -0.04593225265 -0.025526573 0.1974695815 -0.2468818119 10.30185224 292
30.221424818 0.00845767711 0.00845767711 0.00845767711 0.830762584 -0.009039257809 -0.0164997315 -0.0238718751 0.3060787606 -0.1119713319 10.36734935 293
30.331272841 0.007208051052 0.007208051052 0.007208051052 0.8316082874 -0.01215386351 0.01957109635 -0.02731037136 0.2989934974 -0.1734075747 10.01430013 294
30.431273937 0.005920458861 0.005920458861 0.005920458861 0.832355308 -0.01242855417 0.02367446187 -0.02708791603 0.2416701787 -0.3214494857 9.644716899 295
30.541268826 0.006394514732 0.006394514732 0.006394514732 0.8331215702 0.01389152806 0.01168777245 -0.02645724241 0.232526585 -0.4221973761 9.528198723 296
30.641283989 0.006592720272 0.006592720272 0.006592720272 0.8337796236 0.009193199617 0.006151015033 -0.02501167326 0.3350871223 -0.2313478633 9.749091189 297
30.741423845 0.007086083771 0.007086083771 0.007086083771 0.834437464 0.01682071393 0.01106171055 -0.02367701215 0.3514690073 -0.322272257 9.809920694 298
30.851289034 0.006654207948 0.006654207948 0.006654207948 0.8351700628 0.002777738778 0.01585100682 -0.02400124304 0.3368688474 -0.1149246028 9.78647571 299
30.951279879 0.006359024016 0.006359024016 0.006359024016 0.8358996022 -0.0008557147545 0.01168154536 -0.02684587502 0.322965947 -0.1514852692 9.569933687 300
31.051285982 0.005766131994 0.005766131994 0.005766131994 0.8366033934 -0.00970829991 0.002855292381 -0.02609831048 0.323916335 -0.2091506172 9.675746308 301
31.161303997 0.005459620571 0.005459620571 0.005459620571 0.8374245412 -0.008838969079 -0.0002569199824 -0.02642818914 0.2591065289 -0.280323489 9.689579598 302
31.261390925 0.004722769331 0.004722769331 0.004722769331 0.8381478086 -0.01595436785 0.000262916253 -0.02642526668 0.08441014435 -0.2041296106 9.828639325 303
31.361325979 0.004364167317 0.004364167317 0.004364167317 0.8388985912 -0.01104205656 -0.002199441686 -0.02739691879 -0.01260262082 -0.2978817334 9.860926654 304
31.471323967 0.00429141197 0.00429141197 0.00429141197 0.839696285 -0.006551072755 -0.00516173968 -0.02611604687 -0.112281344 -0.2811002121 9.828632271 305
31.571322918 0.004356799621 0.004356799621 0.004356799621 0.8404376341 -0.002566629771 -0.003393199748 -0.02730816003 -0.1356414996 -0.3067041305 9.943684664 306
31.671303034 0.004840387062 0.004840387062 0.004840387062 0.8411087985 0.008623381855 0.0004788799803 -0.02463355533 -0.1911545741 -0.3244661004 9.99206158 307
31.781360865 0.005082327111 0.005082327111 0.005082327111 0.8417701109 0.009819456137 0.004762984248 -0.02246962139 -0.3397690211 -0.3003386206 9.954103693 308
31.881325960 0.005776949502 0.005776949502 0.005776949502 0.8423316733 0.0164391846 0.002673142137 -0.02151650767 -0.1837883673 -0.2536878569 9.784439674 309
31.981303930 0.006256572841 0.006256572841 0.006256572841 0.8428999803 0.01464914525 0.004547900361 -0.02210882485 -0.2362978491 -0.1943278592 9.792864267 310
32.091341019 0.00608416844 0.00608416844 0.00608416844 0.843511541 0.004715531019 0.01319701649 -0.02074897659 -0.2462730802 -0.1373102631 9.772338173 311
32.191380978 0.005784916634 0.005784916634 0.005784916634 0.8440725175 -0.00111071144 0.005151512835 -0.02124393349 -0.3218353118 -0.200842317 9.618641878 312
32.301502943 0.005892475764 0.005892475764 0.005892475764 0.8446772036 -0.002393550112 -0.003589012264 -0.02140562343 -0.389368553 -0.1647781941 9.629026496 313
32.401454926 0.006076697807 0.006076697807 0.006076697807 0.8452731496 -0.003156487161 -0.009826488519 -0.02239602253 -0.3186581863 -0.1514660489 9.742672241 314
32.501368046 0.005073895779 0.005073895779 0.005073895779 0.8458784443 -0.02789023443 -0.007922484483 -0.02317262622 -0.3476854552 -0.1033203832 9.904644654 315
32.611342907 0.004598397137 0.004598397137 0.004598397137 0.8465012202 -0.01317646843 -0.007845556477 -0.02250693266 -0.3786147038 -0.3368684072 9.927002219 316
32.711432934 0.004248910733 0.004248910733 0.004248910733 0.8470220861 -0.0133865592 -0.007646704321 -0.02021679295 -0.3543896992 -0.1335207389 9.810505654 317
32.811472893 0.003857041193 0.003857041193 0.003857041193 0.847643388 -0.006865898335 0.0008076099916 -0.02230533975 -0.3091299057 -0.2979686387 9.910746713 318
32.921376944 0.00331176224 0.00331176224 0.00331176224 0.848249858 -0.001224652313 0.01678668394 -0.0215057601 -0.3889767572 -0.2930745797 10.02446257 319
33.021397829 0.003617607141 0.003617607141 0.003617607141 0.8488020975 0.01509707283 0.01640653807 -0.02144519381 -0.4910237124 -0.2921206875 9.557321993 320
33.121354818 0.004207416373 0.004207416373 0.004207416373 0.8493344559 0.0138690703 0.003820902192 -0.0207686571 -0.5005908065 -0.03323871564 9.583970993 321
33.231554985 0.004868107789 0.004868107789 0.004868107789 0.8498891272 0.01247664785 -0.0002386722772 -0.0197757355 -0.4072555611 -0.2218825634 9.690147317 322
33.331382990 0.004988007192 0.004988007192 0.004988007192 0.8503644967 0.00215153558 -0.001558221669 -0.0184194962 -0.4507070135 -0.07838176033 9.818101404 323
33.431430817 0.004752488684 0.004752488684 0.004752488684 0.850911308 -0.002715767724 0.001533833829 -0.02048872788 -0.3900921316 -0.05905002181 9.821965875 324
33.541368008 0.003685776343 0.003685776343 0.003685776343 0.8515051601 -0.01827135043 0.003149136027 -0.02055423023 -0.4247815323 -0.09004229674 9.815802718 325
33.641456843 0.002884568802 0.002884568802 0.002884568802 0.8520428545 -0.01567149796 0.006071942435 -0.022050855 -0.4243462013 -0.1574262741 9.721319753 326
33.741477966 0.002255721059 0.002255721059 0.002255721059 0.8525712537 -0.01273862048 0.003956726075 -0.02122073681 -0.393718007 -0.2761306621 9.818603473 327
33.851397991 0.002075192776 0.002075192776 0.002075192776 0.8532271841 -0.001964026507 0.008889474142 -0.02338205478 -0.4178626391 -0.2364377747 9.757478144 328
33.951419830 0.001623574255 0.001623574255 0.001623574255 0.8538337423 -0.002565008892 0.01131573779 -0.02390325859 -0.36883761 -0.248792229 9.889242185 329
34.061401844 0.002003068659 0.002003068659 0.002003068659 0.8545107004 0.01478651495 0.01274088931 -0.02360934962 -0.4322864542 -0.3527860115 9.680377005 330
34.161432982 0.00237839279 0.00237839279 0.00237839279 0.8550641065 0.01165487788 0.004360425511 -0.0223071655 -0.41182581 -0.1816362225 9.776182028 331
34.261584997 0.003480364229 0.003480364229 0.003480364229 0.8557024805 0.0205637912 -0.007724495975 -0.02496140892 -0.2894956261 -0.4204423225 9.8469707 332
34.371431828 0.004516657944 0.004516657944 0.004516657944 0.856550325 0.007869865342 -0.01360645726 -0.02995556379 -0.4805833608 -0.03104537289 9.609273122 333
34.471446991 0.004455870215 0.004455870215 0.004455870215 0.8575660457 -0.003532044326 -0.01409240556 -0.03970851445 -0.3068476366 -0.1790586226 10.06285507 334
34.571401835 0.004950521663 0.004950521663 0.004950521663 0.8588284808 0.01288198062 -0.003239454406 -0.04655537407 -0.4091690975 -0.8959350629 9.713271612 335
34.681432009 0.005685387544 0.005685387544 0.005685387544 0.8601757011 0.006008224048 0.002660626634 -0.04786819825 -0.5224176759 -0.2623920105 9.966922268 336
34.781483889 0.006027498212 0.006027498212 0.006027498212 0.8614944149 0.005063655314 -0.007982041998 -0.05189554148 -0.5147879829 -0.3961326929 9.455016297 337
34.881453991 0.007263422801 0.007263422801 0.007263422801 0.8627266888 0.009334274484 -0.02073337619 -0.04918235861 -0.5220756401 -0.3817215602 9.890992477 338
34.991451979 0.006858005692 0.006858005692 0.006858005692 0.8641592984 -0.004552623434 -0.001488137059 -0.05273840221 -0.425295887 -0.3368890756 10.16755372 339
35.091445923 0.006802039216 0.006802039216 0.006802039216 0.8654401969 0.008770388037 0.01859320601 -0.05156372159 -0.553007446 -0.6169099451 9.977474971 340
35.191531897 0.006371567797 0.006371567797 0.006371567797 0.8665303233 0.004316388777 0.02267276534 -0.04566281312 -0.6521296688 -0.374105392 9.719410618 341
35.301642895 0.006596021431 0.006596021431 0.006596021431 0.8676766012 0.01166947285 0.01269376778 -0.04304516193 -0.5506282915 -0.441446759 9.55428653 342
35.401510000 0.007310294855 0.007310294855 0.007310294855 0.8685408064 0.01407993217 -0.002875036846 -0.03710706476 -0.5163917465 -0.4008248388 9.560694944 343
35.511489868 0.008718094309 0.008718094309 0.008718094309 0.869477569 0.01807066133 -0.01548485707 -0.03546712063 -0.5870177365 -0.3001984777 9.710255263 344
35.611454010 0.009448754495 0.009448754495 0.009448754495 0.8701687413 0.001672590794 -0.02602456111 -0.03008559074 -0.7313471007 -0.2606929137 9.846558001 345
35.711572886 0.0098916544 0.0098916544 0.0098916544 0.8707516048 -0.001150854867 -0.0224519153 -0.02591694994 -0.7018991615 -0.1759943449 10.09093479 346
35.821480990 0.009552630417 0.009552630417 0.009552630417 0.8712462315 -0.01229073978 -0.004839540236 -0.01919924782 -0.8310929905 -0.1773145566 10.06501404 347
35.921489000 0.00840023938 0.00840023938 0.00840023938 0.8716555643 -0.01756996647 0.01128961035 -0.01687145539 -0.9960571506 -0.008895217665 10.03246105 348
36.021529913 0.007768597328 0.007768597328 0.007768597328 0.8720588744 -0.007000139946 0.01734729317 -0.01621455161 -1.085517129 -0.2373318995 9.719872865 349
36.131512880 0.007151614952 0.007151614952 0.007151614952 0.8724116361 -0.006233241025 0.009503452938 -0.01384056262 -1.20184077 0.0330460258 9.701635644 350
36.231657028 0.007166755893 0.007166755893 0.007166755893 0.8727167113 0.003793424697 0.01053773347 -0.01223817331 -1.359335492 -0.2094161044 9.641104603 351
36.331466913 0.007748101467 0.007748101467 0.007748101467 0.8727656564 0.01193444997 0.003094107929 -0.003864152087 -1.459630786 -0.2451734799 9.809540337 352
36.441498041 0.008421121428 0.008421121428 0.008421121428 0.8725970402 0.013486723 0.0002428846578 0.004938937852 -1.499620923 0.02629981577 9.879811975 353
36.541507960 0.008735122202 0.008735122202 0.008735122202 0.8723092077 0.01184196355 0.006178111467 0.01034367319 -1.582550254 0.05556370364 9.708198204 354
36.641527891 0.009373980874 0.009373980874 0.009373980874 0.8719830228 0.01074758162 -0.004183421116 0.01155403277 -1.507520692 0.1870472727 9.827341172 355
36.751617909 0.009432383405 0.009432383405 0.009432383405 0.8717125341 -0.001652366307 -0.004343538555 0.01100320471 -1.310780018 0.1626143675 9.762970625 356
36.851526022 0.009204221807 0.009204221807 0.009204221807 0.8714648313 -0.007142000288 -0.005977643793 0.01043376813 -1.112511513 0.1436252465 9.761195659 357
36.951532841 0.009003079512 0.009003079512 0.009003079512 0.8711295907 -0.006081094156 -0.005518428573 0.01311671175 -1.186591019 0.05632331955 9.962223515 358
37.061547041 0.00904052864 0.00904052864 0.00904052864 0.8707683399 -0.002283556779 -0.002780463288 0.01375588316 -1.191151221 0.1016179273 9.724709208 359
37.161543846 0.009117768682 0.009117768682 0.009117768682 0.8703339441 -0.0001620061511 -0.005452156002 0.0174098649 -1.275497197 0.09633758562 9.829317282 360
37.271685839 0.0101398162 0.0101398162 0.0101398162 0.8696154904 0.00998855944 -0.01835044797 0.02528249572 -1.299266508 0.05096574677 9.815295597 361
37.371534825 0.01133661289 0.01133661289 0.01133661289 0.868650123 0.0187773663 -0.01421068111 0.0363437128 -1.167402904 0.1521003184 10.01106313 362
37.471580982 0.01166315926 0.01166315926 0.01166315926 0.8676447859 0.01139006414 0.002342555306 0.03994438953 -1.132439386 0.3289998814 9.818877504 363
37.581568003 0.01127254249 0.01127254249 0.01127254249 0.8666366431 0.001558882549 0.01032703578 0.03657701524 -1.149013119 0.3279300899 9.790271323 364
37.681571007 0.01037947402 0.01037947402 0.01037947402 0.8657623816 -0.01395977039 0.01614975385 0.0346437725 -1.135939906 0.2222433401 10.19470527 365
37.781626940 0.01026329387 0.01026329387 0.01026329387 0.8648963817 0.01179639279 0.01724077766 0.03426385327 -1.312225537 -0.09801266988 9.476710986 366
37.891556025 0.01139663131 0.01139663131 0.01139663131 0.8639857758 0.01745948745 -0.0001692903137 0.03396784025 -1.326935354 0.2558677313 9.663917133 367
37.991575003 0.011487051 0.011487051 0.011487051 0.8632455685 0.005538060208 0.001717304281 0.02953677938 -1.457454789 0.3855379122 9.815639661 368
38.091603041 0.01105379264 0.01105379264 0.01105379264 0.862538141 -0.007640062721 0.0005292724345 0.02850627586 -1.521314447 0.2490544124 9.799539941 369
38.201649904 0.01062606215 0.01062606215 0.01062606215 0.8617810957 -0.00454979927 0.00381761197 0.02746865797 -1.634252975 0.03181334446 9.873717428 370
38.301692009 0.01066092642 0.01066092642 0.01066092642 0.8610306424 0.0001544024474 0.003284606757 0.02907218918 -1.726811694 0.09782369777 9.783056651 371
38.401634932 0.0105755003 0.0105755003 0.0105755003 0.8602939949 0.001833078967 0.00151502622 0.02839409634 -1.819602117 0.2392811213 9.786854106 372
38.511611939 0.01070690644 0.01070690644 0.01070690644 0.8596861423 0.002715909849 0.002234077505 0.02272070943 -1.842086263 0.1533800429 9.841208948 373
38.611606836 0.01042544717 0.01042544717 0.01042544717 0.8592773372 -0.003496525883 0.00323559405 0.01743282288 -1.971159593 0.1534449427 9.779797813 374
38.711866856 0.01001199607 0.01001199607 0.01001199607 0.8591372917 -0.009467643589 -0.002378370493 0.007078058721 -1.987927642 0.1593673864 9.771214809 375
38.821590901 0.00934043002 0.00934043002 0.00934043002 0.8593855085 -0.01555731933 -0.004641998411 -0.005933013586 -2.002979017 -0.08853218306 9.854048909 376
38.921597004 0.009031633323 0.009031633323 0.009031633323 0.8598864681 -0.01413052877 -0.007936645034 -0.0175326527 -2.051475389 -0.0937347622 9.867641312 377
39.031666994 0.009644003935 0.009644003935 0.009644003935 0.8607937909 0.006139385878 -0.007692362295 -0.03146847687 -2.080837223 -0.2540246506 9.842596874 378
39.131661892 0.01066389256 0.01066389256 0.01066389256 0.8616766331 0.01859268036 -0.007870763086 -0.03390789518 -2.055828737 -0.260123807 9.750426262 379
39.231773853 0.01176487614 0.01176487614 0.01176487614 0.862666203 0.02292166713 -0.0008604535582 -0.03856094406 -2.060831382 -0.01606228173 9.826486337 380
39.341639996 0.01165582274 0.01165582274 0.01165582274 0.8637711263 0.003995525522 0.008405543539 -0.039190527 -2.046062734 0.02513699144 9.741224214 381
39.441578865 0.01100529505 0.01100529505 0.01100529505 0.8646953477 -0.006025800946 0.013089962 -0.03604489277 -2.017364149 -0.07759018151 9.949462462 382
39.541635990 0.01064402811 0.01064402811 0.01064402811 0.8654535459 -0.002053836224 0.009033588707 -0.03037957448 -2.1008203 -0.2652217644 9.899055111 383
39.651654959 0.01169086621 0.01169086621 0.01169086621 0.8662545027 0.01819850238 0.0008342438377 -0.03003527022 -1.917928301 -0.1819372367 9.718601448 384
39.751709938 0.01242905102 0.01242905102 0.01242905102 0.8669604117 0.01654130582 0.003131245394 -0.02835131852 -1.85582813 -0.02729114967 9.825401763 385
39.851670981 0.01211509129 0.01211509129 0.01211509129 0.8674679181 9.690271318e-05 0.007713560109 -0.02110806634 -1.800554921 0.1411646856 9.725212083 386
39.961642027 0.01136506003 0.01136506003 0.01136506003 0.8680962327 -0.01322718049 0.00291646506 -0.02221740569 -1.545703244 -0.02275752856 9.734017541 387
40.061730862 0.01030827743 0.01030827743 0.01030827743 0.8686500654 -0.0213000373 0.006633957973 -0.02078411033 -1.603997127 -0.01957465404 9.780878036 388
40.161705017 0.009643131569 0.009643131569 0.009643131569 0.8690949911 -0.01303137424 -0.0005355667765 -0.01797500153 -1.646193716 -0.1417796723 9.87209163 389
40.271767855 0.01067395476 0.01067395476 0.01067395476 0.8695765034 0.009252008269 -0.01386410804 -0.01942430555 -1.526893443 -0.2267261828 9.758343813 390
40.371721029 0.01217574348 0.01217574348 0.01217574348 0.8699390262 0.02632615892 -0.009510076583 -0.01640335437 -1.356221513 -0.07787998547 9.791415229 391
40.481669903 0.01275451019 0.01275451019 0.01275451019 0.8702396932 0.01164636238 0.003693352337 -0.01263593887 -1.269470221 0.2121639154 9.768805348 392
40.581712961 0.01196701049 0.01196701049 0.01196701049 0.8705363219 -0.009760374426 0.005554871472 -0.0125914948 -1.096885898 0.1774630215 9.717045931 393
40.681685925 0.01156960517 0.01156960517 0.01156960517 0.8708217823 -0.0118996235 -0.006541541803 -0.01139518275 -0.9729113195 -0.1454951704 9.71717005 394
40.791731835 0.01208996012 0.01208996012 0.01208996012 0.8711121216 0.002329893573 -0.01274874394 -0.01139826369 -0.7457982869 -0.09230377165 9.851502903 395
40.891682863 0.01257159732 0.01257159732 0.01257159732 0.8713226672 0.006018031405 -0.007148686911 -0.009371907498 -0.6747497248 -0.004104876914 9.886563366 396
40.991734028 0.0127340547 0.0127340547 0.0127340547 0.8715106947 0.002062746405 -0.003678240251 -0.007673545551 -0.7065910523 0.04539827427 9.840132992 397
41.101778031 0.01288727419 0.01288727419 0.01288727419 0.8717171921 0.0001881422093 -0.006308035945 -0.007552963577 -0.7163040821 -0.02701819785 9.784872578 398
41.201794863 0.01316569105 0.01316569105 0.01316569105 0.8719059802 0.0036140951 -0.003618910009 -0.007868268292 -0.7029515953 -0.007243094692 9.797081601 399
41.301911831 0.01326963043 0.01326963043 0.01326963043 0.8720217872 0.002100080516 0.0005436472008 -0.006350417319 -0.7553124616 0.0253070799 9.836572596 400
41.411720991 0.01316727104 0.01316727104 0.01316727104 0.8720393168 -0.001754258761 0.001000867725 -0.004487187414 -0.8640754803 0.0556003875 9.86672778 401
41.511735916 0.01299325525 0.01299325525 0.01299325525 0.8720752728 -0.003015165244 0.0019611524 -0.003559041242 -0.9504696261 -0.05734682577 9.849087161 402
41.611713886 0.01309123071 0.01309123071 0.01309123071 0.8720568602 0.002347182451 0.0035725321 -0.002425448984 -1.037628089 -0.06786256734 9.817729479 403
41.721923828 0.01337572993 0.01337572993 0.01337572993 0.872019134 0.005584304363 0.001430479772 -0.0008151982141 -1.110707253 0.004559065984 9.794611222 404
41.821713925 0.01344609145 0.01344609145 0.01344609145 0.8719449996 0.002082641431 0.001613067174 0.0001661712069 -1.169191938 0.06409456385 9.787276399 405
41.931748867 0.01340289222 0.01340289222 0.01340289222 0.8719222808 -0.002965132379 -0.004445595004 -0.0002279816704 -0.322275612 0.03078530049 9.76784863 406
42.031781912 0.01347640717 0.01347640717 0.01347640717 0.8718799249 -0.006066039697 -0.01301039429 0.0006825433803 0.3713854334 -0.01574647819 9.768099921 407
42.131778002 0.01385789463 0.01385789463 0.01385789463 0.8718572215 -0.0008512275837 -0.01367253172 0.0005033566348 0.192674862 -0.05193654413 9.813490332 408
42.241999865 0.01394190004 0.01394190004 0.01394190004 0.8718470015 0.001722743368 0.0005446975783 -0.000122466306 -0.1681113769 -0.02687821036 9.80734406 409
42.341732979 0.01401694039 0.01401694039 0.01401694039 0.8718129714 0.003122034013 0.002160099979 0.0002729483236 0.003013773329 0.01658617472 9.800433641 410
42.441741943 0.01411106097 0.01411106097 0.01411106097 0.8718066445 -0.0003512064311 -0.00246780578 -9.16755015e-05 0.07362525724 0.02945003985 9.852197556 411
42.551791906 0.01396598582 0.01396598582 0.01396598582 0.8717920736 -0.001379183019 0.002751277176 0.0003755735467 -0.05036564086 -0.002636725902 9.798187392 412
42.651787996 0.01387196344 0.01387196344 0.01387196344 0.8718061681 -0.0009458270992 0.0007992866753 -0.0002911870222 -0.047829015 -0.01605205557 9.786138783 413
42.751843929 0.01394515399 0.01394515399 0.01394515399 0.8718325969 0.001161327965 -0.001577634577 -0.0003041770314 0.00217933676 -0.005941557817 9.814217891 414
42.861775875 0.01381373264 0.01381373264 0.01381373264 0.8718584417 -0.0004480355145 0.001358772565 0.0001121110505 0.02571681564 -0.005631222987 9.81622377 415
42.961781025 0.01373921165 0.01373921165 0.01373921165 0.8718917749 0.0001536363291 2.381564944e-05 0.0002911846037 -0.05454980978 0.01114806906 9.796188665 416
43.061800003 0.01371000417 0.01371000417 0.01371000417 0.871922131 8.209594992e-05 -0.001400705751 -0.0003111237632 -0.01535974873 -0.01943563441 9.824968749 417
43.171808958 0.01364699488 0.01364699488 0.01364699488 0.8719422498 0.000310185941 0.0001374659638 0.0003852644926 0.01622203417 0.01123548033 9.802438107 418
43.271986008 0.01363583138 0.01363583138 0.01363583138 0.8719545674 0.0005764817807 0.0003014419443 0.0004314003187 -0.01511607007 0.008318984907 9.824293232 419
43.381812811 0.01352547192 0.01352547192 0.01352547192 0.8719928535 -0.0008520964363 0.0001042987039 0.0002752273699 -0.01764435608 0.000291057932 9.802693226 420
43.481839895 0.01346504297 0.01346504297 0.01346504297 0.8719954598 -0.0009686638056 -6.184692944e-05 0.000364386294 0.004463825172 -0.003923994434 9.803207364 421
43.581821919 0.0134916389 0.0134916389 0.0134916389 0.8719996939 0.0003204507781 -0.0006264766912 0.0004429006904 0.00366351316 0.003911454962 9.820397167 422
43.681833029 0.01340474023 0.01340474023 0.01340474023 0.8720245518 5.86791592e-05 0.0007240525689 -7.556564037e-05 -0.006606069377 -0.003481307788 9.811413852 423
43.791859865 0.01338691433 0.01338691433 0.01338691433 0.8720307024 -0.0003333548446 -0.0007106879407 0.0002145041898 0.002214679983 0.008611370267 9.813859248 424
43.891831875 0.01331220538 0.01331220538 0.01331220538 0.8720446234 -0.0003381479888 0.0009467687137 7.451181133e-05 0.004315340878 0.00358648921 9.811027545 425
44.001988888 0.013307828 0.013307828 0.013307828 0.8720370705 0.0004604638186 0.0001208821516 0.0007482430326 0.001287127434 -0.009019320938 9.815268903 426
44.101999045 0.01326955135 0.01326955135 0.01326955135 0.8720265654 0.0003065458027 0.000272473724 0.0001963209349 -0.01282831782 0.01838391199 9.79836562 427
44.201992035 0.01323452039 0.01323452039 0.01323452039 0.8720334557 -0.0002202970769 -0.0005048627238 -0.0003801709981 0.006643524253 0.004429263802 9.817973203 428
44.311930895 0.01319212285 0.01319212285 0.01319212285 0.8720337475 -0.0002502132622 0.000140525871 0.0001806750842 0.001354738916 0.01627657811 9.804830387 429
44.411867857 0.0131785594 0.0131785594 0.0131785594 0.8720483025 0.0004241131623 0.0003613826203 -0.0001699789732 -0.0002689813178 -0.01152724334 9.815598774 430
44.511857987 0.01318163208 0.01318163208 0.01318163208 0.8720573087 0.0002549880964 -6.998817402e-05 1.138070543e-05 -0.004627272119 0.0221614511 9.791875125 431
44.621865988 0.01316901601 0.01316901601 0.01316901601 0.8720746082 -0.0002399812926 0.0004271615575 0.0004536689945 0.01171007757 0.004194683599 9.813493283 432
44.722012043 0.01316886941 0.01316886941 0.01316886941 0.8720941461 0.0002518937229 0.0003415176876 5.276892634e-05 -0.005643405666 0.003418125186 9.797716428 433
44.821884871 0.01317659047 0.01317659047 0.01317659047 0.872109943 0.0002200681756 -4.610701403e-05 -0.0003975872734 0.009155309734 -0.002279505422 9.815454739 434
44.931869030 0.0131703931 0.0131703931 0.0131703931 0.8721119964 -0.000518892416 -8.170149331e-05 -6.025063478e-05 0.01055815537 0.008494654811 9.817202068 435
45.031884909 0.01317522791 0.01317522791 0.01317522791 0.8721212015 0.0001173117326 3.886395561e-05 -0.0003051049075 0.002163542001 0.01317884484 9.801872158 436
45.131871939 0.01314269298 0.01314269298 0.01314269298 0.8721232002 -0.0007010535493 -0.0003745964364 -0.0003854081952 -0.001539902349 0.004128718166 9.814262221 437
45.242024899 0.01313357734 0.01313357734 0.01313357734 0.8721144902 -0.0003836756551 0.0003219815906 0.000301875802 -0.003015380893 0.01619065599 9.796332968 438
45.341900826 0.0131650505 0.0131650505 0.0131650505 0.8721536447 -6.878734589e-05 0.0004199544412 -0.0005571406024 0.01173991649 0.004164551892 9.821070993 439
45.441895008 0.01316273176 0.01316273176 0.01316273176 0.8721511958 -0.0001806400674 0.0007869260713 0.0004942750016 -0.001424119928 0.01078964804 9.802834115 440
45.551862002 0.01320297675 0.01320297675 0.01320297675 0.8721719613 6.246272208e-05 -0.0002366560753 0.0004770898408 0.003657267879 -0.005628147021 9.81088227 441
45.651852846 0.01320998566 0.01320998566 0.01320998566 0.8721997576 -0.000240476353 -0.0003164396839 -0.0003257406475 -0.000130940171 0.01513258282 9.799992977 442
45.761899948 0.01323738036 0.01323738036 0.01323738036 0.8722012846 -9.035894198e-05 0.000465320636 0.001067294949 0.004909565804 0.003245839684 9.810412007 443
45.861836910 0.01324788111 0.01324788111 0.01324788111 0.8722006814 3.057698999e-05 -0.0004799919519 0.0003712958152 -0.008186791763 0.009528524174 9.799730072 444
45.961839914 0.01325202112 0.01325202112 0.01325202112 0.8722069609 0.0002683492437 0.0002195853193 0.0002144715179 0.01301235217 0.0006022976889 9.817662906 445
46.071877003 0.01327881619 0.01327881619 0.01327881619 0.8722186077 5.747144344e-05 -0.000541681714 0.0004302324479 0.002948322443 0.004114213058 9.816699992 446
46.171860933 0.01328422712 0.01328422712 0.01328422712 0.8722390324 0.0004059363557 3.456235701e-05 -0.0003450019653 0.001033811443 0.002261439113 9.804807523 447
